*	Measurement	data	measured	by	REW	V5.20	Beta	4												
*	Source:	Microphone	(E.A.R.S	Gain:	18dB	),	no	input	selected,	L,	volume:	no	control							
*	Format:	256k	Log	Swept	Sine,	1	sweep	at	-8	dBFS	With	no	timing	reference						
*	Dated:	Jan	28,	2019	11.32.59	AM														
*	REW	Settings:																		
*	C-weighting	compensation:	Off																	
*	Target	level:	75	dB																
*	Note:	Really	big	difference	between	R	&	L.	We	had	to	adjust	fit	several	times	to	get	a	good	measurement
*	Measurement:	Bose	QC	35	II	L														
*	Smoothing:	Jan/48	octave																	
*	Frequency	Step:	Jan/96	octave																
*	Start	Frequency:	20,1	Hz																
*																				
*	Freq(Hz)	SPL(dB)	Phase(degrees)																	
20,145	86,237	-159,376																		
20,291	86,311	-159,718																		
20,438	86,385	-160,28																		
20,586	86,492	-161,155																		
20,735	86,661	-162,378																		
20,885	86,83	-163,601																		
21,037	86,979	-164,689																		
21,189	87,121	-165,733																		
21,343	87,258	-166,731																		
21,497	87,389	-167,683																		
21,653	87,52	-168,643																		
21,81	87,653	-169,619																		
21,968	87,784	-170,591																		
22,127	87,914	-171,552																		
22,288	88,042	-172,506																		
22,449	88,168	-173,448																		
22,612	88,293	-174,38																		
22,776	88,418	-175,309																		
22,941	88,541	-176,235																		
23,107	88,664	-177,157																		
23,274	88,786	-178,073																		
23,443	88,907	-178,987																		
23,613	89,027	-179,899																		
23,784	89,147	179,19																		
23,956	89,266	178,279																		
24,13	89,383	177,366																		
24,305	89,5	176,452																		
24,481	89,616	175,536																		
24,658	89,73	174,617																		
24,837	89,844	173,696																		
25,017	89,955	172,772																		
25,198	90,065	171,846																		
25,381	90,174	170,918																		
25,565	90,281	169,988																		
25,75	90,386	169,057																		
25,937	90,489	168,126																		
26,125	90,59	167,195																		
26,314	90,69	166,265																		
26,505	90,788	165,336																		
26,697	90,884	164,41																		
26,89	90,979	163,486																		
27,085	91,072	162,565																		
27,281	91,163	161,646																		
27,479	91,253	160,731																		
27,678	91,342	159,819																		
27,879	91,43	158,91																		
28,081	91,517	158,003																		
28,284	91,602	157,099																		
28,489	91,687	156,197																		
28,696	91,771	155,296																		
28,904	91,853	154,396																		
29,113	91,935	153,496																		
29,324	92,016	152,596																		
29,537	92,095	151,695																		
29,751	92,174	150,794																		
29,966	92,251	149,892																		
30,183	92,327	148,99																		
30,402	92,402	148,088																		
30,622	92,475	147,185																		
30,844	92,547	146,284																		
31,068	92,618	145,383																		
31,293	92,687	144,485																		
31,52	92,754	143,59																		
31,748	92,82	142,698																		
31,978	92,885	141,809																		
32,21	92,948	140,926																		
32,443	93,01	140,048																		
32,678	93,071	139,175																		
32,915	93,131	138,308																		
33,154	93,19	137,446																		
33,394	93,248	136,59																		
33,636	93,306	135,737																		
33,88	93,363	134,888																		
34,125	93,42	134,04																		
34,372	93,476	133,193																		
34,621	93,531	132,345																		
34,872	93,585	131,495																		
35,125	93,638	130,643																		
35,38	93,688	129,791																		
35,636	93,737	128,939																		
35,894	93,783	128,091																		
36,154	93,826	127,249																		
36,416	93,867	126,417																		
36,68	93,905	125,599																		
36,946	93,941	124,797																		
37,214	93,975	124,014																		
37,483	94,008	123,251																		
37,755	94,041	122,509																		
38,029	94,073	121,787																		
38,304	94,106	121,082																		
38,582	94,139	120,392																		
38,861	94,174	119,715																		
39,143	94,209	119,048																		
39,427	94,246	118,388																		
39,712	94,283	117,733																		
40	94,321	117,081																		
40,29	94,36	116,432																		
40,582	94,4	115,784																		
40,876	94,44	115,135																		
41,172	94,48	114,483																		
41,47	94,521	113,827																		
41,771	94,562	113,165																		
42,074	94,602	112,495																		
42,379	94,641	111,817																		
42,686	94,68	111,129																		
42,995	94,716	110,433																		
43,306	94,75	109,729																		
43,62	94,782	109,019																		
43,936	94,811	108,306																		
44,255	94,836	107,59																		
44,575	94,858	106,876																		
44,898	94,877	106,166																		
45,224	94,892	105,461																		
45,552	94,904	104,764																		
45,882	94,911	104,077																		
46,214	94,915	103,402																		
46,549	94,914	102,742																		
46,886	94,909	102,101																		
47,226	94,899	101,484																		
47,568	94,884	100,901																		
47,913	94,864	100,362																		
48,26	94,841	99,877																		
48,61	94,815	99,456																		
48,962	94,79	99,105																		
49,317	94,768	98,824																		
49,674	94,751	98,606																		
50,034	94,742	98,441																		
50,397	94,743	98,309																		
50,762	94,753	98,193																		
51,13	94,772	98,077																		
51,5	94,798	97,946																		
51,874	94,83	97,795																		
52,249	94,866	97,622																		
52,628	94,904	97,428																		
53,009	94,944	97,217																		
53,394	94,986	96,993																		
53,781	95,029	96,759																		
54,17	95,073	96,513																		
54,563	95,118	96,255																		
54,958	95,164	95,98																		
55,356	95,21	95,688																		
55,758	95,256	95,379																		
56,162	95,299	95,058																		
56,569	95,34	94,73																		
56,978	95,379	94,404																		
57,391	95,415	94,086																		
57,807	95,449	93,784																		
58,226	95,484	93,5																		
58,648	95,519	93,234																		
59,073	95,555	92,983																		
59,501	95,594	92,743																		
59,932	95,635	92,509																		
60,367	95,678	92,277																		
60,804	95,724	92,042																		
61,245	95,772	91,803																		
61,688	95,821	91,559																		
62,135	95,872	91,307																		
62,586	95,924	91,048																		
63,039	95,976	90,781																		
63,496	96,03	90,503																		
63,956	96,084	90,217																		
64,42	96,138	89,921																		
64,886	96,192	89,618																		
65,357	96,246	89,308																		
65,83	96,299	88,993																		
66,307	96,352	88,677																		
66,788	96,405	88,358																		
67,272	96,458	88,038																		
67,759	96,511	87,715																		
68,25	96,565	87,387																		
68,745	96,619	87,053																		
69,243	96,673	86,712																		
69,745	96,726	86,363																		
70,25	96,779	86,008																		
70,759	96,831	85,65																		
71,272	96,882	85,292																		
71,788	96,933	84,934																		
72,309	96,983	84,576																		
72,833	97,035	84,217																		
73,36	97,086	83,853																		
73,892	97,139	83,479																		
74,427	97,19	83,094																		
74,967	97,241	82,698																		
75,51	97,29	82,296																		
76,057	97,337	81,891																		
76,608	97,382	81,489																		
77,163	97,426	81,095																		
77,723	97,471	80,706																		
78,286	97,516	80,319																		
78,853	97,562	79,931																		
79,424	97,608	79,536																		
80	97,654	79,133																		
80,58	97,7	78,72																		
81,164	97,745	78,298																		
81,752	97,789	77,868																		
82,344	97,831	77,431																		
82,941	97,871	76,99																		
83,542	97,91	76,546																		
84,147	97,947	76,104																		
84,757	97,982	75,666																		
85,371	98,016	75,23																		
85,99	98,05	74,796																		
86,613	98,083	74,359																		
87,241	98,115	73,918																		
87,873	98,145	73,474																		
88,51	98,174	73,032																		
89,151	98,201	72,595																		
89,797	98,227	72,161																		
90,448	98,254	71,725																		
91,103	98,281	71,273																		
91,763	98,306	70,797																		
92,428	98,325	70,301																		
93,098	98,338	69,799																		
93,773	98,344	69,314																		
94,452	98,346	68,856																		
95,137	98,344	68,428																		
95,826	98,341	68,026																		
96,52	98,336	67,651																		
97,22	98,331	67,302																		
97,924	98,326	66,976																		
98,634	98,322	66,66																		
99,349	98,317	66,346																		
100,069	98,309	66,041																		
100,794	98,298	65,769																		
101,524	98,285	65,548																		
102,26	98,276	65,377																		
103,001	98,275	65,231																		
103,747	98,281	65,073																		
104,499	98,291	64,88																		
105,256	98,302	64,644																		
106,019	98,307	64,365																		
106,787	98,303	64,056																		
107,561	98,284	63,757																		
108,34	98,249	63,541																		
109,126	98,206	63,486																		
109,916	98,172	63,612																		
110,713	98,161	63,863																		
111,515	98,18	64,125																		
112,323	98,222	64,3																		
113,137	98,272	64,348																		
113,957	98,321	64,288																		
114,783	98,363	64,165																		
115,614	98,397	64,023																		
116,452	98,426	63,885																		
117,296	98,454	63,754																		
118,146	98,481	63,618																		
119,002	98,506	63,468																		
119,865	98,527	63,314																		
120,733	98,542	63,18																		
121,608	98,555	63,086																		
122,489	98,571	63,031																		
123,377	98,591	62,991																		
124,271	98,616	62,938																		
125,171	98,641	62,865																		
126,078	98,663	62,784																		
126,992	98,683	62,719																		
127,912	98,703	62,69																		
128,839	98,728	62,692																		
129,773	98,763	62,683																		
130,713	98,802	62,612																		
131,66	98,836	62,463																		
132,615	98,853	62,303																		
133,575	98,857	62,238																		
134,543	98,866	62,323																		
135,518	98,895	62,489																		
136,5	98,947	62,604																		
137,49	99,005	62,59																		
138,486	99,056	62,487																		
139,489	99,094	62,381																		
140,5	99,129	62,319																		
141,518	99,168	62,286																		
142,544	99,211	62,251																		
143,577	99,257	62,196																		
144,617	99,302	62,117																		
145,665	99,345	62,023																		
146,721	99,385	61,929																		
147,784	99,423	61,855																		
148,855	99,462	61,803																		
149,933	99,505	61,759																		
151,02	99,549	61,708																		
152,114	99,594	61,647																		
153,217	99,639	61,579																		
154,327	99,683	61,506																		
155,445	99,726	61,436																		
156,572	99,77	61,368																		
157,706	99,813	61,295																		
158,849	99,854	61,224																		
160	99,896	61,16																		
161,159	99,938	61,102																		
162,327	99,979	61,052																		
163,504	100,022	61,025																		
164,688	100,07	61,008																		
165,882	100,122	60,979																		
167,084	100,177	60,933																		
168,295	100,235	60,878																		
169,514	100,296	60,8																		
170,742	100,357	60,688																		
171,98	100,417	60,552																		
173,226	100,475	60,412																		
174,481	100,534	60,261																		
175,746	100,592	60,088																		
177,019	100,646	59,894																		
178,302	100,694	59,703																		
179,594	100,739	59,54																		
180,895	100,784	59,404																		
182,206	100,83	59,284																		
183,527	100,876	59,181																		
184,856	100,925	59,102																		
186,196	100,978	59,034																		
187,545	101,037	58,951																		
188,904	101,099	58,829																		
190,273	101,159	58,667																		
191,652	101,214	58,475																		
193,041	101,264	58,279																		
194,44	101,312	58,107																		
195,849	101,363	57,937																		
197,268	101,415	57,722																		
198,697	101,455	57,509																		
200,137	101,493	57,381																		
201,587	101,542	57,319																		
203,048	101,603	57,239																		
204,52	101,669	57,099																		
206,002	101,73	56,919																		
207,494	101,785	56,755																		
208,998	101,84	56,642																		
210,512	101,903	56,55																		
212,038	101,972	56,442																		
213,574	102,046	56,323																		
215,122	102,125	56,186																		
216,681	102,211	55,995																		
218,251	102,297	55,735																		
219,833	102,377	55,43																		
221,426	102,454	55,108																		
223,03	102,528	54,783																		
224,646	102,604	54,443																		
226,274	102,681	54,066																		
227,914	102,755	53,645																		
229,565	102,823	53,183																		
231,229	102,884	52,701																		
232,905	102,937	52,23																		
234,592	102,99	51,786																		
236,292	103,045	51,34																		
238,004	103,101	50,861																		
239,729	103,152	50,36																		
241,466	103,2	49,879																		
243,216	103,249	49,416																		
244,979	103,299	48,927																		
246,754	103,342	48,417																		
248,542	103,379	47,938																		
250,343	103,416	47,483																		
252,157	103,454	47,007																		
253,984	103,489	46,504																		
255,825	103,521	45,98																		
257,678	103,546	45,429																		
259,546	103,563	44,879																		
261,426	103,574	44,373																		
263,321	103,589	43,893																		
265,229	103,604	43,381																		
267,151	103,613	42,85																		
269,087	103,615	42,348																		
271,037	103,617	41,878																		
273,001	103,621	41,41																		
274,979	103,623	40,927																		
276,972	103,62	40,442																		
278,979	103,612	39,973																		
281	103,603	39,516																		
283,037	103,592	39,063																		
285,088	103,577	38,618																		
287,153	103,558	38,198																		
289,234	103,538	37,811																		
291,33	103,518	37,454																		
293,441	103,499	37,12																		
295,568	103,478	36,801																		
297,71	103,456	36,508																		
299,867	103,433	36,242																		
302,04	103,409	35,996																		
304,228	103,385	35,769																		
306,433	103,358	35,567																		
308,654	103,33	35,407																		
310,89	103,306	35,288																		
313,143	103,288	35,178																		
315,412	103,272	35,054																		
317,698	103,256	34,928																		
320	103,24	34,822																		
322,319	103,229	34,727																		
324,655	103,221	34,618																		
327,007	103,214	34,492																		
329,377	103,206	34,36																		
331,764	103,196	34,232																		
334,168	103,185	34,118																		
336,589	103,175	34,028																		
339,028	103,167	33,947																		
341,485	103,16	33,865																		
343,959	103,153	33,786																		
346,452	103,147	33,712																		
348,962	103,142	33,633																		
351,491	103,135	33,553																		
354,038	103,126	33,489																		
356,604	103,117	33,448																		
359,188	103,109	33,426																		
361,791	103,104	33,42																		
364,412	103,101	33,416																		
367,053	103,099	33,409																		
369,713	103,096	33,408																		
372,392	103,095	33,416																		
375,09	103,094	33,427																		
377,809	103,094	33,433																		
380,546	103,094	33,436																		
383,304	103,094	33,441																		
386,081	103,093	33,457																		
388,879	103,093	33,489																		
391,697	103,095	33,529																		
394,536	103,098	33,566																		
397,395	103,101	33,605																		
400,274	103,104	33,662																		
403,175	103,111	33,733																		
406,096	103,12	33,805																		
409,039	103,131	33,893																		
412,003	103,147	33,995																		
414,989	103,169	34,063																		
417,996	103,189	34,097																		
421,025	103,207	34,138																		
424,076	103,226	34,193																		
427,149	103,247	34,254																		
430,244	103,267	34,314																		
433,362	103,287	34,378																		
436,502	103,309	34,451																		
439,665	103,332	34,523																		
442,851	103,355	34,588																		
446,06	103,38	34,649																		
449,293	103,404	34,707																		
452,548	103,43	34,763																		
455,828	103,456	34,813																		
459,131	103,482	34,859																		
462,458	103,51	34,904																		
465,809	103,539	34,946																		
469,184	103,568	34,99																		
472,584	103,599	35,039																		
476,009	103,63	35,093																		
479,458	103,663	35,151																		
482,933	103,698	35,211																		
486,432	103,734	35,268																		
489,957	103,772	35,317																		
493,507	103,81	35,361																		
497,084	103,85	35,399																		
500,686	103,89	35,435																		
504,314	103,931	35,472																		
507,968	103,973	35,512																		
511,649	104,017	35,551																		
515,357	104,063	35,586																		
519,091	104,11	35,61																		
522,853	104,157	35,619																		
526,642	104,204	35,623																		
530,458	104,252	35,622																		
534,302	104,3	35,61																		
538,174	104,348	35,599																		
542,074	104,398	35,587																		
546,002	104,449	35,568																		
549,958	104,502	35,545																		
553,943	104,557	35,511																		
557,958	104,614	35,456																		
562,001	104,669	35,399																		
566,073	104,725	35,35																		
570,175	104,783	35,298																		
574,307	104,843	35,231																		
578,469	104,904	35,153																		
582,66	104,964	35,071																		
586,883	105,026	34,977																		
591,135	105,087	34,87																		
595,419	105,148	34,751																		
599,734	105,21	34,62																		
604,08	105,272	34,479																		
608,457	105,333	34,331																		
612,866	105,395	34,177																		
617,307	105,456	34,013																		
621,78	105,516	33,841																		
626,286	105,576	33,662																		
630,824	105,635	33,485																		
635,396	105,694	33,313																		
640	105,754	33,149																		
644,638	105,818	32,989																		
649,309	105,885	32,828																		
654,014	105,956	32,655																		
658,753	106,03	32,46																		
663,527	106,107	32,237																		
668,335	106,184	31,985																		
673,178	106,262	31,705																		
678,056	106,34	31,404																		
682,97	106,418	31,077																		
687,919	106,496	30,725																		
692,904	106,572	30,355																		
697,925	106,646	29,972																		
702,982	106,72	29,574																		
708,076	106,794	29,162																		
713,208	106,867	28,735																		
718,376	106,938	28,292																		
723,581	107,009	27,839																		
728,825	107,08	27,372																		
734,106	107,152	26,88																		
739,426	107,223	26,362																		
744,784	107,293	25,82																		
750,181	107,362	25,259																		
755,617	107,43	24,675																		
761,093	107,497	24,067																		
766,608	107,564	23,432																		
772,163	107,629	22,768																		
777,758	107,694	22,073																		
783,394	107,756	21,347																		
789,071	107,814	20,6																		
794,789	107,871	19,827																		
800,548	107,925	19,02																		
806,349	107,975	18,177																		
812,193	108,02	17,308																		
818,078	108,059	16,421																		
824,006	108,093	15,518																		
829,977	108,122	14,598																		
835,992	108,146	13,652																		
842,05	108,162	12,687																		
848,151	108,171	11,71																		
854,297	108,173	10,723																		
860,488	108,167	9,734																		
866,724	108,154	8,754																		
873,004	108,135	7,781																		
879,33	108,11	6,812																		
885,702	108,079	5,85																		
892,12	108,041	4,902																		
898,585	107,998	3,975																		
905,097	107,951	3,069																		
911,655	107,898	2,185																		
918,262	107,842	1,333																		
924,916	107,786	0,51																		
931,618	107,728	-0,301																		
938,369	107,667	-1,106																		
945,169	107,604	-1,9																		
952,018	107,537	-2,677																		
958,917	107,468	-3,44																		
965,865	107,397	-4,192																		
972,864	107,323	-4,931																		
979,914	107,247	-5,661																		
987,015	107,167	-6,39																		
994,167	107,083	-7,114																		
1.001,37	106,994	-7,823																		
1.008,63	106,901	-8,516																		
1.015,94	106,804	-9,191																		
1.023,30	106,703	-9,844																		
1.030,71	106,597	-10,468																		
1.038,18	106,488	-11,06																		
1.045,71	106,378	-11,62																		
1.053,28	106,266	-12,151																		
1.060,92	106,155	-12,657																		
1.068,60	106,042	-13,139																		
1.076,35	105,929	-13,603																		
1.084,15	105,816	-14,052																		
1.092,00	105,703	-14,482																		
1.099,92	105,59	-14,896																		
1.107,89	105,477	-15,296																		
1.115,92	105,362	-15,686																		
1.124,00	105,245	-16,066																		
1.132,15	105,127	-16,432																		
1.140,35	105,007	-16,782																		
1.148,61	104,886	-17,118																		
1.156,94	104,764	-17,448																		
1.165,32	104,637	-17,77																		
1.173,77	104,507	-18,067																		
1.182,27	104,374	-18,335																		
1.190,84	104,24	-18,584																		
1.199,47	104,104	-18,819																		
1.208,16	103,965	-19,033																		
1.216,91	103,824	-19,218																		
1.225,73	103,68	-19,373																		
1.234,61	103,536	-19,498																		
1.243,56	103,391	-19,598																		
1.252,57	103,247	-19,677																		
1.261,65	103,102	-19,729																		
1.270,79	102,955	-19,747																		
1.280,00	102,809	-19,738																		
1.289,28	102,664	-19,704																		
1.298,62	102,518	-19,644																		
1.308,03	102,372	-19,552																		
1.317,51	102,226	-19,423																		
1.327,05	102,083	-19,269																		
1.336,67	101,943	-19,098																		
1.346,36	101,804	-18,911																		
1.356,11	101,667	-18,717																		
1.365,94	101,531	-18,525																		
1.375,84	101,394	-18,336																		
1.385,81	101,25	-18,146																		
1.395,85	101,095	-17,896																		
1.405,97	100,938	-17,521																		
1.416,15	100,797	-17,057																		
1.426,42	100,676	-16,627																		
1.436,75	100,56	-16,294																		
1.447,16	100,438	-16,031																		
1.457,65	100,307	-15,786																		
1.468,21	100,167	-15,531																		
1.478,85	100,019	-15,254																		
1.489,57	99,864	-14,95																		
1.500,36	99,705	-14,604																		
1.511,23	99,54	-14,202																		
1.522,19	99,373	-13,734																		
1.533,22	99,202	-13,202																		
1.544,33	99,03	-12,602																		
1.555,52	98,855	-11,923																		
1.566,79	98,68	-11,157																		
1.578,14	98,506	-10,301																		
1.589,58	98,338	-9,348																		
1.601,10	98,18	-8,305																		
1.612,70	98,037	-7,197																		
1.624,39	97,908	-6,06																		
1.636,16	97,79	-4,926																		
1.648,01	97,678	-3,803																		
1.659,96	97,57	-2,664																		
1.671,98	97,469	-1,493																		
1.684,10	97,377	-0,307																		
1.696,30	97,292	0,881																		
1.708,60	97,214	2,066																		
1.720,98	97,143	3,233																		
1.733,45	97,075	4,379																		
1.746,01	97,008	5,515																		
1.758,66	96,941	6,656																		
1.771,41	96,877	7,817																		
1.784,24	96,815	9,004																		
1.797,17	96,758	10,214																		
1.810,19	96,707	11,44																		
1.823,31	96,661	12,664																		
1.836,52	96,617	13,897																		
1.849,83	96,576	15,15																		
1.863,24	96,538	16,432																		
1.876,74	96,506	17,735																		
1.890,34	96,478	19,055																		
1.904,04	96,457	20,399																		
1.917,83	96,445	21,763																		
1.931,73	96,441	23,137																		
1.945,73	96,445	24,516																		
1.959,83	96,46	25,891																		
1.974,03	96,483	27,233																		
1.988,33	96,511	28,534																		
2.002,74	96,54	29,807																		
2.017,26	96,57	31,071																		
2.031,87	96,601	32,339																		
2.046,60	96,633	33,632																		
2.061,43	96,666	34,992																		
2.076,37	96,714	36,473																		
2.091,41	96,802	37,997																		
2.106,57	96,927	39,34																		
2.121,83	97,061	40,405																		
2.137,21	97,183	41,25																		
2.152,70	97,287	41,977																		
2.168,29	97,375	42,65																		
2.184,01	97,449	43,291																		
2.199,83	97,509	43,915																		
2.215,77	97,556	44,548																		
2.231,83	97,59	45,215																		
2.248,00	97,615	45,926																		
2.264,29	97,634	46,674																		
2.280,70	97,649	47,464																		
2.297,23	97,66	48,291																		
2.313,87	97,667	49,131																		
2.330,64	97,667	49,979																		
2.347,53	97,652	50,849																		
2.364,54	97,617	51,798																		
2.381,68	97,563	52,915																		
2.398,94	97,501	54,255																		
2.416,32	97,442	55,828																		
2.433,83	97,396	57,607																		
2.451,46	97,367	59,576																		
2.469,23	97,358	61,724																		
2.487,12	97,373	64,052																		
2.505,15	97,419	66,556																		
2.523,30	97,5	69,205																		
2.541,58	97,624	71,951																		
2.560,00	97,795	74,745																		
2.578,55	98,014	77,536																		
2.597,24	98,28	80,282																		
2.616,06	98,594	82,946																		
2.635,01	98,955	85,485																		
2.654,11	99,362	87,841																		
2.673,34	99,812	89,948																		
2.692,71	100,297	91,755																		
2.712,23	100,812	93,218																		
2.731,88	101,343	94,298																		
2.751,68	101,879	94,973																		
2.771,62	102,405	95,249																		
2.791,70	102,911	95,16																		
2.811,93	103,39	94,754																		
2.832,31	103,839	94,051																		
2.852,83	104,246	93,08																		
2.873,50	104,601	91,927																		
2.894,33	104,901	90,715																		
2.915,30	105,153	89,558																		
2.936,42	105,369	88,523																		
2.957,70	105,562	87,627																		
2.979,14	105,74	86,855																		
3.000,72	105,906	86,185																		
3.022,47	106,058	85,599																		
3.044,37	106,196	85,124																		
3.066,43	106,326	84,799																		
3.088,65	106,457	84,611																		
3.111,03	106,591	84,53																		
3.133,58	106,728	84,551																		
3.156,28	106,867	84,693																		
3.179,16	107,014	84,986																		
3.202,19	107,184	85,436																		
3.225,40	107,39	85,994																		
3.248,77	107,644	86,515																		
3.272,31	107,929	86,817																		
3.296,03	108,209	86,817																		
3.319,91	108,448	86,65																		
3.343,97	108,636	86,652																		
3.368,20	108,81	87,178																		
3.392,61	109,05	88,315																		
3.417,19	109,432	89,669																		
3.441,95	109,945	90,534																		
3.466,89	110,493	90,55																		
3.492,02	111,01	89,985																		
3.517,32	111,501	89,141																		
3.542,81	111,983	88,061																		
3.568,48	112,453	86,698																		
3.594,34	112,897	85,054																		
3.620,39	113,304	83,227																		
3.646,62	113,678	81,402																		
3.673,05	114,054	79,673																		
3.699,66	114,465	77,804																		
3.726,47	114,878	75,426																		
3.753,48	115,235	72,562																		
3.780,68	115,516	69,513																		
3.808,07	115,732	66,489																		
3.835,67	115,895	63,583																		
3.863,46	116,016	60,839																		
3.891,46	116,102	58,306																		
3.919,66	116,167	56,027																		
3.948,06	116,226	54,016																		
3.976,67	116,295	52,266																		
4.005,49	116,385	50,747																		
4.034,51	116,505	49,373																		
4.063,75	116,661	48,049																		
4.093,19	116,853	46,703																		
4.122,86	117,076	45,267																		
4.152,73	117,328	43,685																		
4.182,82	117,604	41,918																		
4.213,13	117,903	39,927																		
4.243,66	118,223	37,681																		
4.274,42	118,557	35,125																		
4.305,39	118,895	32,202																		
4.336,59	119,229	28,879																		
4.368,01	119,553	25,11																		
4.399,67	119,852	20,861																		
4.431,55	120,106	16,135																		
4.463,66	120,294	10,955																		
4.496,01	120,4	5,396																		
4.528,59	120,407	-0,422																		
4.561,40	120,306	-6,329																		
4.594,46	120,104	-12,129																		
4.627,75	119,819	-17,719																		
4.661,28	119,453	-23,091																		
4.695,06	119,002	-28,142																		
4.729,08	118,48	-32,731																		
4.763,35	117,912	-36,814																		
4.797,87	117,318	-40,401																		
4.832,64	116,709	-43,534																		
4.867,66	116,091	-46,259																		
4.902,93	115,475	-48,624																		
4.938,46	114,87	-50,69																		
4.974,24	114,275	-52,526																		
5.010,29	113,684	-54,185																		
5.046,60	113,097	-55,675																		
5.083,17	112,514	-56,998																		
5.120,00	111,931	-58,193																		
5.157,10	111,347	-59,328																		
5.194,47	110,745	-60,411																		
5.232,11	110,109	-61,325																		
5.270,03	109,441	-61,974																		
5.308,22	108,751	-62,371																		
5.346,68	108,029	-62,549																		
5.385,43	107,238	-62,404																		
5.424,45	106,334	-61,393																		
5.463,76	105,342	-58,509																		
5.503,35	104,48	-53,322																		
5.543,23	104,002	-47,307																		
5.583,40	103,805	-41,837																		
5.623,86	103,815	-36,41																		
5.664,61	104,153	-31,706																		
5.705,66	104,664	-29,175																		
5.747,01	105,116	-28,746																		
5.788,65	105,433	-29,579																		
5.830,60	105,622	-31,141																		
5.872,85	105,689	-33,209																		
5.915,41	105,612	-35,56																		
5.958,27	105,377	-37,85																		
6.001,45	105,003	-39,669																		
6.044,94	104,538	-40,757																		
6.088,74	104,035	-41,113																		
6.132,86	103,522	-40,832																		
6.177,30	103,01	-39,956																		
6.222,07	102,51	-38,476																		
6.267,15	102,046	-36,411																		
6.312,57	101,644	-33,848																		
6.358,31	101,323	-30,917																		
6.404,39	101,096	-27,771																		
6.450,80	100,965	-24,553																		
6.497,54	100,923	-21,379																		
6.544,63	100,969	-18,355																		
6.592,05	101,1	-15,593																		
6.639,82	101,308	-13,238																		
6.687,93	101,575	-11,43																		
6.736,40	101,878	-10,247																		
6.785,21	102,195	-9,746																		
6.834,38	102,494	-9,987																		
6.883,91	102,738	-10,933																		
6.933,79	102,894	-12,391																		
6.984,03	102,952	-14,162																		
7.034,64	102,904	-16,129																		
7.085,62	102,737	-18,149																		
7.136,96	102,439	-19,921																		
7.188,68	102,013	-20,98																		
7.240,77	101,496	-20,954																		
7.293,24	100,957	-19,706																		
7.346,09	100,473	-17,254																		
7.399,33	100,122	-13,777																		
7.452,94	99,971	-9,623																		
7.506,95	100,053	-5,406																		
7.561,35	100,341	-1,744																		
7.616,14	100,769	0,973																		
7.671,33	101,262	2,538																		
7.726,92	101,749	2,99																		
7.782,92	102,199	2,574																		
7.839,31	102,606	1,462																		
7.896,12	102,954	-0,286																		
7.953,34	103,217	-2,651																		
8.010,97	103,365	-5,544																		
8.069,02	103,367	-8,685																		
8.127,49	103,231	-11,67																		
8.186,39	102,989	-14,251																		
8.245,71	102,648	-16,411																		
8.305,46	102,188	-17,924																		
8.365,65	101,621	-18,023																		
8.426,27	101,095	-16,161																		
8.487,33	100,837	-13,104																		
8.548,83	100,89	-10,387																		
8.610,78	101,106	-8,925																		
8.673,18	101,328	-8,696																		
8.736,03	101,489	-9,188																		
8.799,33	101,601	-10,043																		
8.863,10	101,678	-11,256																		
8.927,32	101,704	-12,85																		
8.992,01	101,651	-14,698																		
9.057,17	101,502	-16,556																		
9.122,80	101,266	-18,132																		
9.188,91	100,974	-19,248																		
9.255,50	100,662	-19,893																		
9.322,57	100,369	-20,159																		
9.390,12	100,112	-20,198																		
9.458,17	99,883	-20,176																		
9.526,70	99,672	-20,172																		
9.595,74	99,468	-20,193																		
9.665,27	99,264	-20,259																		
9.735,31	99,057	-20,428																		
9.805,86	98,835	-20,766																		
9.876,92	98,572	-21,259																		
9.948,49	98,241	-21,726																		
10.020,58	97,83	-21,843																		
10.093,19	97,354	-21,278																		
10.166,33	96,86	-19,8																		
10.240,00	96,426	-17,425																		
10.314,20	96,121	-14,531																		
10.388,94	95,959	-11,653																		
10.464,23	95,9	-9,132																		
10.540,06	95,894	-6,994																		
10.616,43	95,915	-5,115																		
10.693,36	95,965	-3,495																		
10.770,85	96,035	-2,248																		
10.848,90	96,1	-1,412																		
10.927,52	96,139	-0,869																		
11.006,70	96,139	-0,424																		
11.086,46	96,105	0,084																		
11.166,80	96,053	0,766																		
11.247,72	96,006	1,647																		
11.329,22	95,987	2,638																		
11.411,32	96,011	3,61																		
11.494,01	96,089	4,4																		
11.577,30	96,206	4,799																		
11.661,20	96,324	4,623																		
11.745,70	96,385	3,847																		
11.830,81	96,341	2,706																		
11.916,54	96,172	1,644																		
12.002,90	95,904	1,075																		
12.089,87	95,58	1,177																		
12.177,48	95,235	1,989																		
12.265,72	94,894	3,681																		
12.354,61	94,615	6,494																		
12.444,13	94,53	10,291																		
12.534,31	94,761	14,146																		
12.625,14	95,262	16,72																		
12.716,62	95,841	17,258																		
12.808,77	96,315	16,015																		
12.901,59	96,609	13,794																		
12.995,08	96,733	11,317																		
13.089,25	96,734	8,98																		
13.184,10	96,662	6,869																		
13.279,64	96,536	4,917																		
13.375,87	96,349	3,085																		
13.472,79	96,084	1,479																		
13.570,42	95,745	0,317																		
13.668,76	95,357	-0,177																		
13.767,81	94,971	0,01																		
13.867,58	94,618	0,671																		
13.968,07	94,302	1,755																		
14.069,29	94,052	3,356																		
14.171,24	93,925	5,223																		
14.273,93	93,936	6,781																		
14.377,36	94,017	7,655																		
14.481,55	94,098	7,831																		
14.586,49	94,151	7,476																		
14.692,19	94,162	6,737																		
14.798,65	94,099	5,72																		
14.905,89	93,934	4,672																		
15.013,90	93,666	4,064																		
15.122,70	93,351	4,278																		
15.232,29	93,076	5,332																		
15.342,66	92,919	7,005																		
15.453,84	92,938	8,851																		
15.565,83	93,129	10,18																		
15.678,63	93,418	10,371																		
15.792,24	93,698	9,201																		
15.906,68	93,888	6,889																		
16.021,94	93,944	3,932																		
16.138,04	93,859	0,799																		
16.254,99	93,649	-2,319																		
16.372,78	93,312	-5,196																		
16.491,42	92,884	-7,533																		
16.610,92	92,427	-9,469																		
16.731,30	91,942	-11,442																		
16.852,54	91,352	-13,491																		
16.974,66	90,597	-14,945																		
17.097,66	89,699	-14,896																		
17.221,56	88,772	-12,844																		
17.346,35	87,99	-9,007																		
17.472,05	87,502	-4,3																		
17.598,66	87,326	0,172																		
17.726,19	87,378	3,767																		
17.854,64	87,563	6,181																		
17.984,02	87,775	7,243																		
18.114,34	87,924	7,202																		
18.245,61	87,974	6,51																		
18.377,82	87,927	5,532																		
18.510,99	87,809	4,455																		
18.645,13	87,646	3,259																		
18.780,24	87,439	1,83																		
18.916,33	87,15	0,116																		
19.053,41	86,721	-1,703																		
19.191,48	86,112	-3,055																		
19.330,55	85,35	-3,136																		
19.470,62	84,542	-1,418																		
19.611,72	83,816	2,01																		
19.753,83	83,298	6,561																		
19.896,98	83,048	10,921																		
