*	Measurement	data	measured	by	REW	V5.20	Beta	4						
*	Source:	Microphone	(E.A.R.S	Gain:	18dB	),	no	input	selected,	R,	volume:	no	control	
*	Format:	256k	Log	Swept	Sine,	1	sweep	at	-5	dBFS	With	no	timing	reference
*	Dated:	Jan	28,	2019	11.30.49	AM								
*	REW	Settings:												
*	C-weighting	compensation:	Off											
*	Target	level:	75	dB										
*	Note:	";"												
*	Measurement:	Bose	QC	35	II	R								
*	Smoothing:	Jan/48	octave											
*	Frequency	Step:	Jan/96	octave										
*	Start	Frequency:	20,1	Hz										
*														
*	Freq(Hz)	SPL(dB)	Phase(degrees)											
20,145	90,394	172,456												
20,291	90,47	172,148												
20,438	90,547	171,643												
20,586	90,658	170,854												
20,735	90,833	169,75												
20,885	91,006	168,643												
21,037	91,158	167,652												
21,189	91,302	166,697												
21,343	91,44	165,78												
21,497	91,57	164,9												
21,653	91,701	164,011												
21,81	91,832	163,104												
21,968	91,961	162,197												
22,127	92,088	161,297												
22,288	92,213	160,4												
22,449	92,336	159,508												
22,612	92,457	158,622												
22,776	92,576	157,734												
22,941	92,694	156,845												
23,107	92,81	155,955												
23,274	92,924	155,067												
23,443	93,036	154,177												
23,613	93,147	153,287												
23,784	93,255	152,395												
23,956	93,362	151,502												
24,13	93,466	150,607												
24,305	93,569	149,712												
24,481	93,67	148,815												
24,658	93,768	147,918												
24,837	93,865	147,021												
25,017	93,959	146,124												
25,198	94,052	145,227												
25,381	94,142	144,332												
25,565	94,23	143,438												
25,75	94,317	142,546												
25,937	94,401	141,656												
26,125	94,484	140,769												
26,314	94,565	139,884												
26,505	94,645	139,001												
26,697	94,722	138,122												
26,89	94,799	137,244												
27,085	94,873	136,37												
27,281	94,947	135,498												
27,479	95,019	134,628												
27,678	95,089	133,761												
27,879	95,159	132,895												
28,081	95,227	132,032												
28,284	95,293	131,171												
28,489	95,359	130,312												
28,696	95,423	129,454												
28,904	95,486	128,598												
29,113	95,547	127,744												
29,324	95,608	126,892												
29,537	95,667	126,042												
29,751	95,725	125,193												
29,966	95,781	124,346												
30,183	95,836	123,501												
30,402	95,89	122,658												
30,622	95,943	121,817												
30,844	95,994	120,978												
31,068	96,045	120,14												
31,293	96,093	119,305												
31,52	96,141	118,472												
31,748	96,187	117,641												
31,978	96,231	116,812												
32,21	96,274	115,986												
32,443	96,316	115,163												
32,678	96,356	114,343												
32,915	96,394	113,527												
33,154	96,43	112,716												
33,394	96,465	111,911												
33,636	96,498	111,114												
33,88	96,529	110,325												
34,125	96,559	109,545												
34,372	96,587	108,775												
34,621	96,614	108,017												
34,872	96,64	107,27												
35,125	96,665	106,535												
35,38	96,689	105,811												
35,636	96,714	105,099												
35,894	96,737	104,398												
36,154	96,761	103,707												
36,416	96,785	103,023												
36,68	96,809	102,348												
36,946	96,833	101,678												
37,214	96,858	101,013												
37,483	96,883	100,35												
37,755	96,908	99,689												
38,029	96,933	99,028												
38,304	96,957	98,365												
38,582	96,981	97,7												
38,861	97,005	97,032												
39,143	97,026	96,362												
39,427	97,047	95,691												
39,712	97,065	95,021												
40	97,082	94,354												
40,29	97,096	93,692												
40,582	97,108	93,041												
40,876	97,118	92,401												
41,172	97,126	91,776												
41,47	97,134	91,167												
41,771	97,141	90,575												
42,074	97,147	90												
42,379	97,154	89,439												
42,686	97,162	88,89												
42,995	97,171	88,349												
43,306	97,181	87,814												
43,62	97,192	87,279												
43,936	97,203	86,741												
44,255	97,215	86,197												
44,575	97,227	85,644												
44,898	97,237	85,081												
45,224	97,245	84,508												
45,552	97,251	83,928												
45,882	97,253	83,343												
46,214	97,25	82,76												
46,549	97,243	82,185												
46,886	97,231	81,625												
47,226	97,215	81,088												
47,568	97,194	80,58												
47,913	97,17	80,108												
48,26	97,144	79,675												
48,61	97,117	79,284												
48,962	97,089	78,936												
49,317	97,063	78,629												
49,674	97,038	78,36												
50,034	97,017	78,124												
50,397	96,998	77,916												
50,762	96,983	77,729												
51,13	96,972	77,557												
51,5	96,963	77,397												
51,874	96,958	77,244												
52,249	96,954	77,097												
52,628	96,952	76,955												
53,009	96,952	76,818												
53,394	96,953	76,686												
53,781	96,955	76,56												
54,17	96,957	76,443												
54,563	96,96	76,335												
54,958	96,964	76,239												
55,356	96,969	76,156												
55,758	96,975	76,086												
56,162	96,982	76,03												
56,569	96,992	75,986												
56,978	97,004	75,95												
57,391	97,019	75,921												
57,807	97,035	75,896												
58,226	97,053	75,875												
58,648	97,074	75,858												
59,073	97,096	75,844												
59,501	97,12	75,834												
59,932	97,146	75,827												
60,367	97,175	75,82												
60,804	97,207	75,811												
61,245	97,24	75,797												
61,688	97,276	75,779												
62,135	97,314	75,753												
62,586	97,353	75,72												
63,039	97,394	75,68												
63,496	97,436	75,631												
63,956	97,48	75,574												
64,42	97,525	75,507												
64,886	97,572	75,43												
65,357	97,619	75,342												
65,83	97,667	75,244												
66,307	97,715	75,135												
66,788	97,764	75,018												
67,272	97,812	74,893												
67,759	97,861	74,762												
68,25	97,911	74,624												
68,745	97,96	74,479												
69,243	98,01	74,326												
69,745	98,059	74,166												
70,25	98,108	74,001												
70,759	98,157	73,833												
71,272	98,205	73,666												
71,788	98,253	73,501												
72,309	98,302	73,338												
72,833	98,352	73,174												
73,36	98,403	73,005												
73,892	98,456	72,83												
74,427	98,508	72,645												
74,967	98,561	72,451												
75,51	98,614	72,25												
76,057	98,666	72,041												
76,608	98,718	71,826												
77,163	98,77	71,606												
77,723	98,821	71,383												
78,286	98,872	71,155												
78,853	98,922	70,925												
79,424	98,973	70,691												
80	99,023	70,454												
80,58	99,073	70,211												
81,164	99,123	69,963												
81,752	99,172	69,706												
82,344	99,22	69,442												
82,941	99,268	69,171												
83,542	99,313	68,896												
84,147	99,357	68,623												
84,757	99,399	68,354												
85,371	99,441	68,092												
85,99	99,483	67,834												
86,613	99,524	67,578												
87,241	99,566	67,322												
87,873	99,607	67,067												
88,51	99,649	66,813												
89,151	99,691	66,56												
89,797	99,734	66,306												
90,448	99,779	66,044												
91,103	99,824	65,768												
91,763	99,87	65,469												
92,428	99,914	65,145												
93,098	99,954	64,799												
93,773	99,99	64,443												
94,452	100,021	64,091												
95,137	100,049	63,754												
95,826	100,075	63,434												
96,52	100,1	63,126												
97,22	100,125	62,824												
97,924	100,15	62,524												
98,634	100,175	62,224												
99,349	100,198	61,922												
100,069	100,221	61,617												
100,794	100,242	61,307												
101,524	100,261	60,994												
102,26	100,277	60,682												
103,001	100,291	60,374												
103,747	100,303	60,064												
104,499	100,312	59,746												
105,256	100,316	59,409												
106,019	100,31	59,059												
106,787	100,289	58,725												
107,561	100,25	58,475												
108,34	100,197	58,395												
109,126	100,148	58,541												
109,916	100,12	58,89												
110,713	100,13	59,331												
111,515	100,175	59,722												
112,323	100,244	59,969												
113,137	100,319	60,054												
113,957	100,39	60,017												
114,783	100,453	59,909												
115,614	100,509	59,768												
116,452	100,561	59,609												
117,296	100,609	59,438												
118,146	100,653	59,258												
119,002	100,693	59,074												
119,865	100,73	58,894												
120,733	100,765	58,72												
121,608	100,798	58,551												
122,489	100,83	58,384												
123,377	100,86	58,219												
124,271	100,888	58,061												
125,171	100,915	57,912												
126,078	100,941	57,771												
126,992	100,965	57,644												
127,912	100,99	57,534												
128,839	101,016	57,441												
129,773	101,044	57,351												
130,713	101,073	57,254												
131,66	101,101	57,155												
132,615	101,127	57,069												
133,575	101,153	57,008												
134,543	101,181	56,966												
135,518	101,212	56,936												
136,5	101,244	56,914												
137,49	101,28	56,901												
138,486	101,318	56,89												
139,489	101,358	56,872												
140,5	101,4	56,846												
141,518	101,441	56,82												
142,544	101,483	56,801												
143,577	101,527	56,787												
144,617	101,573	56,775												
145,665	101,621	56,761												
146,721	101,673	56,739												
147,784	101,726	56,698												
148,855	101,781	56,633												
149,933	101,834	56,543												
151,02	101,886	56,433												
152,114	101,936	56,311												
153,217	101,983	56,184												
154,327	102,029	56,054												
155,445	102,074	55,927												
156,572	102,119	55,814												
157,706	102,168	55,703												
158,849	102,218	55,579												
160	102,268	55,451												
161,159	102,319	55,352												
162,327	102,376	55,293												
163,504	102,446	55,236												
164,688	102,526	55,128												
165,882	102,607	54,94												
167,084	102,68	54,683												
168,295	102,737	54,421												
169,514	102,78	54,256												
170,742	102,828	54,236												
171,98	102,897	54,29												
173,226	102,99	54,278												
174,481	103,091	54,113												
175,746	103,187	53,794												
177,019	103,269	53,362												
178,302	103,332	52,871												
179,594	103,376	52,378												
180,895	103,402	51,94												
182,206	103,417	51,609												
183,527	103,43	51,408												
184,856	103,453	51,316												
186,196	103,49	51,281												
187,545	103,542	51,261												
188,904	103,607	51,218												
190,273	103,682	51,113												
191,652	103,761	50,922												
193,041	103,836	50,673												
194,44	103,907	50,405												
195,849	103,98	50,12												
197,268	104,053	49,8												
198,697	104,123	49,446												
200,137	104,19	49,074												
201,587	104,255	48,685												
203,048	104,317	48,287												
204,52	104,378	47,889												
206,002	104,439	47,473												
207,494	104,499	47,024												
208,998	104,553	46,56												
210,512	104,605	46,098												
212,038	104,656	45,636												
213,574	104,705	45,17												
215,122	104,754	44,697												
216,681	104,801	44,216												
218,251	104,847	43,729												
219,833	104,894	43,233												
221,426	104,939	42,712												
223,03	104,982	42,161												
224,646	105,019	41,59												
226,274	105,05	41,01												
227,914	105,077	40,422												
229,565	105,098	39,823												
231,229	105,109	39,23												
232,905	105,112	38,673												
234,592	105,111	38,179												
236,292	105,111	37,747												
238,004	105,117	37,357												
239,729	105,133	36,968												
241,466	105,153	36,542												
243,216	105,173	36,081												
244,979	105,192	35,613												
246,754	105,213	35,137												
248,542	105,236	34,634												
250,343	105,259	34,078												
252,157	105,274	33,467												
253,984	105,279	32,838												
255,825	105,276	32,213												
257,678	105,266	31,588												
259,546	105,246	30,981												
261,426	105,221	30,406												
263,321	105,191	29,86												
265,229	105,157	29,346												
267,151	105,122	28,869												
269,087	105,085	28,423												
271,037	105,049	28,004												
273,001	105,012	27,611												
274,979	104,976	27,24												
276,972	104,941	26,883												
278,979	104,905	26,532												
281	104,867	26,184												
283,037	104,825	25,855												
285,088	104,781	25,562												
287,153	104,74	25,291												
289,234	104,699	25,024												
291,33	104,657	24,76												
293,441	104,613	24,506												
295,568	104,566	24,277												
297,71	104,518	24,083												
299,867	104,473	23,915												
302,04	104,43	23,749												
304,228	104,386	23,592												
306,433	104,341	23,46												
308,654	104,297	23,355												
310,89	104,254	23,277												
313,143	104,216	23,212												
315,412	104,179	23,143												
317,698	104,142	23,079												
320	104,104	23,03												
322,319	104,067	22,989												
324,655	104,028	22,966												
327,007	103,989	22,97												
329,377	103,952	22,996												
331,764	103,916	23,038												
334,168	103,883	23,092												
336,589	103,853	23,153												
339,028	103,825	23,209												
341,485	103,797	23,261												
343,959	103,77	23,312												
346,452	103,742	23,365												
348,962	103,713	23,425												
351,491	103,684	23,501												
354,038	103,656	23,596												
356,604	103,629	23,71												
359,188	103,605	23,842												
361,791	103,584	23,985												
364,412	103,566	24,127												
367,053	103,55	24,268												
369,713	103,534	24,416												
372,392	103,52	24,578												
375,09	103,509	24,75												
377,809	103,502	24,918												
380,546	103,495	25,077												
383,304	103,487	25,24												
386,081	103,48	25,41												
388,879	103,474	25,577												
391,697	103,468	25,748												
394,536	103,463	25,935												
397,395	103,462	26,125												
400,274	103,461	26,308												
403,175	103,458	26,498												
406,096	103,458	26,702												
409,039	103,46	26,904												
412,003	103,464	27,119												
414,989	103,473	27,347												
417,996	103,487	27,563												
421,025	103,502	27,769												
424,076	103,518	27,967												
427,149	103,534	28,156												
430,244	103,549	28,345												
433,362	103,564	28,541												
436,502	103,581	28,743												
439,665	103,6	28,946												
442,851	103,623	29,142												
446,06	103,647	29,322												
449,293	103,671	29,49												
452,548	103,695	29,655												
455,828	103,719	29,824												
459,131	103,744	29,997												
462,458	103,77	30,17												
465,809	103,797	30,343												
469,184	103,825	30,518												
472,584	103,856	30,689												
476,009	103,889	30,851												
479,458	103,922	31,008												
482,933	103,957	31,164												
486,432	103,992	31,315												
489,957	104,028	31,464												
493,507	104,065	31,615												
497,084	104,104	31,76												
500,686	104,143	31,901												
504,314	104,183	32,038												
507,968	104,226	32,171												
511,649	104,269	32,294												
515,357	104,313	32,406												
519,091	104,357	32,511												
522,853	104,402	32,612												
526,642	104,448	32,712												
530,458	104,495	32,815												
534,302	104,545	32,912												
538,174	104,594	32,992												
542,074	104,642	33,063												
546,002	104,691	33,134												
549,958	104,741	33,204												
553,943	104,792	33,267												
557,958	104,844	33,325												
562,001	104,897	33,377												
566,073	104,951	33,424												
570,175	105,006	33,465												
574,307	105,061	33,503												
578,469	105,118	33,542												
582,66	105,177	33,576												
586,883	105,237	33,592												
591,135	105,297	33,594												
595,419	105,359	33,588												
599,734	105,421	33,572												
604,08	105,483	33,549												
608,457	105,546	33,526												
612,866	105,611	33,495												
617,307	105,677	33,441												
621,78	105,744	33,367												
626,286	105,81	33,281												
630,824	105,877	33,187												
635,396	105,944	33,088												
640	106,011	32,982												
644,638	106,077	32,867												
649,309	106,144	32,748												
654,014	106,211	32,622												
658,753	106,28	32,484												
663,527	106,349	32,34												
668,335	106,421	32,187												
673,178	106,493	32,011												
678,056	106,566	31,815												
682,97	106,64	31,601												
687,919	106,716	31,369												
692,904	106,792	31,115												
697,925	106,867	30,839												
702,982	106,94	30,545												
708,076	107,012	30,242												
713,208	107,085	29,92												
718,376	107,158	29,573												
723,581	107,228	29,21												
728,825	107,298	28,842												
734,106	107,367	28,459												
739,426	107,437	28,058												
744,784	107,505	27,642												
750,181	107,571	27,212												
755,617	107,637	26,764												
761,093	107,701	26,296												
766,608	107,764	25,81												
772,163	107,826	25,311												
777,758	107,888	24,796												
783,394	107,948	24,255												
789,071	108,006	23,69												
794,789	108,062	23,107												
800,548	108,115	22,513												
806,349	108,168	21,903												
812,193	108,22	21,272												
818,078	108,269	20,626												
824,006	108,315	19,969												
829,977	108,36	19,29												
835,992	108,402	18,586												
842,05	108,44	17,863												
848,151	108,475	17,127												
854,297	108,507	16,376												
860,488	108,536	15,609												
866,724	108,561	14,83												
873,004	108,584	14,037												
879,33	108,605	13,221												
885,702	108,621	12,374												
892,12	108,631	11,507												
898,585	108,635	10,633												
905,097	108,633	9,755												
911,655	108,627	8,875												
918,262	108,616	7,991												
924,916	108,602	7,099												
931,618	108,582	6,2												
938,369	108,558	5,296												
945,169	108,528	4,393												
952,018	108,494	3,489												
958,917	108,455	2,577												
965,865	108,411	1,66												
972,864	108,361	0,744												
979,914	108,306	-0,17												
987,015	108,243	-1,089												
994,167	108,172	-2,005												
1.001,37	108,094	-2,899												
1.008,63	108,01	-3,77												
1.015,94	107,921	-4,626												
1.023,30	107,825	-5,465												
1.030,71	107,724	-6,282												
1.038,18	107,618	-7,077												
1.045,71	107,505	-7,855												
1.053,28	107,386	-8,61												
1.060,92	107,26	-9,328												
1.068,60	107,128	-9,997												
1.076,35	106,993	-10,618												
1.084,15	106,855	-11,208												
1.092,00	106,714	-11,767												
1.099,92	106,568	-12,281												
1.107,89	106,419	-12,741												
1.115,92	106,268	-13,152												
1.124,00	106,116	-13,518												
1.132,15	105,964	-13,838												
1.140,35	105,812	-14,115												
1.148,61	105,661	-14,353												
1.156,94	105,512	-14,559												
1.165,32	105,364	-14,739												
1.173,77	105,216	-14,889												
1.182,27	105,069	-15,012												
1.190,84	104,926	-15,112												
1.199,47	104,784	-15,199												
1.208,16	104,644	-15,272												
1.216,91	104,503	-15,332												
1.225,73	104,364	-15,372												
1.234,61	104,225	-15,396												
1.243,56	104,087	-15,409												
1.252,57	103,95	-15,418												
1.261,65	103,814	-15,426												
1.270,79	103,677	-15,431												
1.280,00	103,541	-15,432												
1.289,28	103,405	-15,437												
1.298,62	103,27	-15,461												
1.308,03	103,134	-15,525												
1.317,51	102,994	-15,655												
1.327,05	102,843	-15,869												
1.336,67	102,667	-16,153												
1.346,36	102,452	-16,393												
1.356,11	102,201	-16,374												
1.365,94	101,953	-15,986												
1.375,84	101,747	-15,445												
1.385,81	101,573	-15,074												
1.395,85	101,38	-14,961												
1.405,97	101,125	-14,882												
1.416,15	100,799	-14,385												
1.426,42	100,463	-13,107												
1.436,75	100,212	-11,229												
1.447,16	100,08	-9,35												
1.457,65	100,018	-7,872												
1.468,21	99,968	-6,797												
1.478,85	99,904	-5,956												
1.489,57	99,821	-5,208												
1.500,36	99,726	-4,487												
1.511,23	99,621	-3,768												
1.522,19	99,514	-3,046												
1.533,22	99,406	-2,334												
1.544,33	99,294	-1,663												
1.555,52	99,17	-1,03												
1.566,79	99,031	-0,392												
1.578,14	98,875	0,274												
1.589,58	98,701	1,011												
1.601,10	98,51	1,905												
1.612,70	98,317	3,002												
1.624,39	98,132	4,27												
1.636,16	97,959	5,645												
1.648,01	97,797	7,088												
1.659,96	97,644	8,587												
1.671,98	97,498	10,149												
1.684,10	97,359	11,787												
1.696,30	97,227	13,497												
1.708,60	97,102	15,291												
1.720,98	96,985	17,183												
1.733,45	96,881	19,169												
1.746,01	96,791	21,237												
1.758,66	96,716	23,371												
1.771,41	96,655	25,576												
1.784,24	96,617	27,856												
1.797,17	96,604	30,171												
1.810,19	96,613	32,518												
1.823,31	96,645	34,856												
1.836,52	96,695	37,161												
1.849,83	96,765	39,457												
1.863,24	96,858	41,726												
1.876,74	96,975	43,932												
1.890,34	97,109	46,046												
1.904,04	97,252	48,066												
1.917,83	97,402	49,98												
1.931,73	97,55	51,811												
1.945,73	97,69	53,715												
1.959,83	97,853	55,822												
1.974,03	98,071	58,003												
1.988,33	98,343	59,991												
2.002,74	98,641	61,657												
2.017,26	98,944	63,039												
2.031,87	99,247	64,166												
2.046,60	99,541	65,047												
2.061,43	99,815	65,72												
2.076,37	100,057	66,263												
2.091,41	100,266	66,877												
2.106,57	100,482	67,693												
2.121,83	100,735	68,497												
2.137,21	101,002	69,046												
2.152,70	101,255	69,38												
2.168,29	101,492	69,623												
2.184,01	101,717	69,794												
2.199,83	101,93	69,9												
2.215,77	102,13	69,941												
2.231,83	102,315	69,927												
2.248,00	102,483	69,884												
2.264,29	102,638	69,843												
2.280,70	102,781	69,826												
2.297,23	102,912	69,843												
2.313,87	103,033	69,894												
2.330,64	103,146	69,981												
2.347,53	103,253	70,115												
2.364,54	103,355	70,301												
2.381,68	103,453	70,557												
2.398,94	103,548	70,903												
2.416,32	103,647	71,342												
2.433,83	103,755	71,838												
2.451,46	103,873	72,365												
2.469,23	103,999	72,922												
2.487,12	104,138	73,495												
2.505,15	104,289	74,061												
2.523,30	104,453	74,598												
2.541,58	104,63	75,086												
2.560,00	104,816	75,501												
2.578,55	105,005	75,815												
2.597,24	105,193	76,044												
2.616,06	105,376	76,237												
2.635,01	105,56	76,422												
2.654,11	105,749	76,58												
2.673,34	105,946	76,678												
2.692,71	106,15	76,665												
2.712,23	106,351	76,489												
2.731,88	106,541	76,165												
2.751,68	106,712	75,748												
2.771,62	106,863	75,274												
2.791,70	106,992	74,764												
2.811,93	107,1	74,24												
2.832,31	107,186	73,726												
2.852,83	107,25	73,255												
2.873,50	107,292	72,864												
2.894,33	107,314	72,59												
2.915,30	107,319	72,468												
2.936,42	107,313	72,509												
2.957,70	107,301	72,71												
2.979,14	107,282	73,073												
3.000,72	107,259	73,634												
3.022,47	107,238	74,446												
3.044,37	107,234	75,525												
3.066,43	107,261	76,814												
3.088,65	107,32	78,201												
3.111,03	107,4	79,616												
3.133,58	107,487	81,096												
3.156,28	107,578	82,759												
3.179,16	107,688	84,734												
3.202,19	107,842	87,074												
3.225,40	108,073	89,749												
3.248,77	108,418	92,574												
3.272,31	108,884	95,164												
3.296,03	109,424	97,196												
3.319,91	109,987	98,718												
3.343,97	110,561	99,953												
3.368,20	111,165	101,012												
3.392,61	111,815	101,861												
3.417,19	112,518	102,356												
3.441,95	113,267	102,319												
3.466,89	114,037	101,624												
3.492,02	114,798	100,251												
3.517,32	115,525	98,254												
3.542,81	116,205	95,704												
3.568,48	116,824	92,66												
3.594,34	117,366	89,209												
3.620,39	117,815	85,543												
3.646,62	118,191	81,973												
3.673,05	118,552	78,532												
3.699,66	118,899	74,796												
3.726,47	119,17	70,7												
3.753,48	119,345	66,528												
3.780,68	119,42	62,468												
3.808,07	119,396	58,8												
3.835,67	119,308	55,85												
3.863,46	119,224	53,692												
3.891,46	119,196	52,111												
3.919,66	119,242	50,779												
3.948,06	119,353	49,429												
3.976,67	119,506	47,927												
4.005,49	119,684	46,238												
4.034,51	119,878	44,366												
4.063,75	120,083	42,321												
4.093,19	120,294	40,099												
4.122,86	120,499	37,681												
4.152,73	120,69	35,069												
4.182,82	120,856	32,291												
4.213,13	120,995	29,385												
4.243,66	121,108	26,391												
4.274,42	121,211	23,294												
4.305,39	121,314	19,998												
4.336,59	121,409	16,432												
4.368,01	121,487	12,643												
4.399,67	121,544	8,688												
4.431,55	121,578	4,563												
4.463,66	121,589	0,258												
4.496,01	121,573	-4,222												
4.528,59	121,521	-8,827												
4.561,40	121,428	-13,475												
4.594,46	121,286	-18,173												
4.627,75	121,073	-22,883												
4.661,28	120,773	-27,385												
4.695,06	120,393	-31,444												
4.729,08	119,952	-35,065												
4.763,35	119,475	-38,439												
4.797,87	118,969	-41,623												
4.832,64	118,433	-44,512												
4.867,66	117,88	-47,078												
4.902,93	117,32	-49,362												
4.938,46	116,76	-51,396												
4.974,24	116,202	-53,213												
5.010,29	115,644	-54,851												
5.046,60	115,079	-56,342												
5.083,17	114,502	-57,7												
5.120,00	113,912	-58,895												
5.157,10	113,306	-59,894												
5.194,47	112,686	-60,67												
5.232,11	112,056	-61,23												
5.270,03	111,414	-61,647												
5.308,22	110,739	-61,974												
5.346,68	109,985	-62,116												
5.385,43	109,087	-61,567												
5.424,45	108,013	-59,046												
5.463,76	106,94	-53,002												
5.503,35	106,409	-44,052												
5.543,23	106,72	-36,086												
5.583,40	107,367	-32,101												
5.623,86	107,843	-31,389												
5.664,61	108,04	-31,709												
5.705,66	108,081	-31,628												
5.747,01	108,111	-30,966												
5.788,65	108,199	-30,09												
5.830,60	108,361	-29,384												
5.872,85	108,585	-29,16												
5.915,41	108,841	-29,658												
5.958,27	109,085	-31,002												
6.001,45	109,271	-33,174												
6.044,94	109,36	-36,029												
6.088,74	109,32	-39,324												
6.132,86	109,132	-42,762												
6.177,30	108,797	-46,021												
6.222,07	108,327	-48,805												
6.267,15	107,746	-50,863												
6.312,57	107,094	-52,011												
6.358,31	106,419	-52,157												
6.404,39	105,77	-51,357												
6.450,80	105,188	-49,84												
6.497,54	104,688	-47,854												
6.544,63	104,275	-45,555												
6.592,05	103,955	-43,008												
6.639,82	103,738	-40,346												
6.687,93	103,628	-37,801												
6.736,40	103,605	-35,565												
6.785,21	103,645	-33,707												
6.834,38	103,741	-32,247												
6.883,91	103,884	-31,328												
6.933,79	104,05	-31,121												
6.984,03	104,199	-31,652												
7.034,64	104,305	-32,837												
7.085,62	104,341	-34,62												
7.136,96	104,276	-36,944												
7.188,68	104,075	-39,636												
7.240,77	103,717	-42,396												
7.293,24	103,2	-44,893												
7.346,09	102,527	-46,805												
7.399,33	101,693	-47,747												
7.452,94	100,709	-47,172												
7.506,95	99,638	-44,483												
7.561,35	98,613	-39,38												
7.616,14	97,822	-32,141												
7.671,33	97,44	-23,577												
7.726,92	97,557	-14,858												
7.782,92	98,121	-7,304												
7.839,31	98,949	-1,886												
7.896,12	99,852	1,169												
7.953,34	100,717	2,165												
8.010,97	101,495	1,482												
8.069,02	102,152	-0,645												
8.127,49	102,638	-4,042												
8.186,39	102,885	-8,364												
8.245,71	102,848	-12,911												
8.305,46	102,536	-16,77												
8.365,65	102,022	-19,223												
8.426,27	101,414	-19,924												
8.487,33	100,843	-18,834												
8.548,83	100,452	-16,433												
8.610,78	100,312	-13,73												
8.673,18	100,37	-11,629												
8.736,03	100,51	-10,507												
8.799,33	100,638	-10,251												
8.863,10	100,716	-10,503												
8.927,32	100,75	-10,97												
8.992,01	100,753	-11,584												
9.057,17	100,717	-12,406												
9.122,80	100,623	-13,401												
9.188,91	100,457	-14,389												
9.255,50	100,222	-15,124												
9.322,57	99,953	-15,436												
9.390,12	99,689	-15,377												
9.458,17	99,443	-15,156												
9.526,70	99,205	-14,945												
9.595,74	98,946	-14,716												
9.665,27	98,649	-14,297												
9.735,31	98,329	-13,489												
9.805,86	98,022	-12,243												
9.876,92	97,753	-10,693												
9.948,49	97,514	-8,966												
10.020,58	97,294	-7,022												
10.093,19	97,105	-4,72												
10.166,33	96,988	-2,054												
10.240,00	96,989	0,718												
10.314,20	97,115	3,155												
10.388,94	97,314	4,862												
10.464,23	97,506	5,799												
10.540,06	97,651	6,265												
10.616,43	97,745	6,613												
10.693,36	97,812	6,977												
10.770,85	97,875	7,277												
10.848,90	97,933	7,471												
10.927,52	97,985	7,625												
11.006,70	98,036	7,726												
11.086,46	98,078	7,699												
11.166,80	98,105	7,605												
11.247,72	98,127	7,471												
11.329,22	98,155	7,204												
11.411,32	98,186	6,712												
11.494,01	98,205	5,937												
11.577,30	98,187	4,835												
11.661,20	98,099	3,421												
11.745,70	97,91	1,825												
11.830,81	97,592	0,364												
11.916,54	97,141	-0,454												
12.002,90	96,591	-0,068												
12.089,87	96,028	1,878												
12.177,48	95,586	5,289												
12.265,72	95,39	9,53												
12.354,61	95,491	13,663												
12.444,13	95,829	16,785												
12.534,31	96,267	18,378												
12.625,14	96,677	18,524												
12.716,62	96,988	17,699												
12.808,77	97,181	16,389												
12.901,59	97,268	14,935												
12.995,08	97,275	13,539												
13.089,25	97,233	12,26												
13.184,10	97,16	11,062												
13.279,64	97,043	9,93												
13.375,87	96,868	8,964												
13.472,79	96,652	8,341												
13.570,42	96,429	8,132												
13.668,76	96,235	8,189												
13.767,81	96,072	8,266												
13.867,58	95,915	8,25												
13.968,07	95,748	8,243												
14.069,29	95,589	8,373												
14.171,24	95,461	8,505												
14.273,93	95,343	8,351												
14.377,36	95,185	7,878												
14.481,55	94,95	7,411												
14.586,49	94,647	7,326												
14.692,19	94,302	7,813												
14.798,65	93,941	9,024												
14.905,89	93,609	11,178												
15.013,90	93,399	14,3												
15.122,70	93,419	17,907												
15.232,29	93,698	21,107												
15.342,66	94,163	23,148												
15.453,84	94,72	23,673												
15.565,83	95,28	22,543												
15.678,63	95,737	19,811												
15.792,24	95,99	15,944												
15.906,68	96,01	11,797												
16.021,94	95,853	8,097												
16.138,04	95,613	5,057												
16.254,99	95,358	2,516												
16.372,78	95,115	0,192												
16.491,42	94,881	-2,244												
16.610,92	94,633	-5,085												
16.731,30	94,319	-8,526												
16.852,54	93,861	-12,51												
16.974,66	93,183	-16,512												
17.097,66	92,257	-19,581												
17.221,56	91,132	-20,776												
17.346,35	89,927	-19,611												
17.472,05	88,794	-16,098												
17.598,66	87,927	-10,747												
17.726,19	87,492	-4,845												
17.854,64	87,448	0,229												
17.984,02	87,634	3,829												
18.114,34	87,926	5,752												
18.245,61	88,225	5,882												
18.377,82	88,422	4,274												
18.510,99	88,409	1,369												
18.645,13	88,124	-2,002												
18.780,24	87,565	-4,899												
18.916,33	86,798	-6,534												
19.053,41	85,929	-6,418												
19.191,48	85,087	-4,546												
19.330,55	84,4	-1,459												
19.470,62	83,926	1,937												
19.611,72	83,615	5,069												
19.753,83	83,408	7,862												
19.896,98	83,295	10,033												
